File: waferscreen/umux100k_v321_banddef_summary.csv
so_band,res_num_per_chip,freq_hz,resonator_height_um,wiggles,sliders,slider_delta_um,resonator_impedance_ohms,coupling_capacitance_f,coupling_inductance_h,x_pos_mm,y_pos_mm
0.0,0.0,4019000000.0,2770.0,21.0,3.0,50.6908,50.0,4.1823e-15,0.0,-8.125,-0.2
0.0,2.0,4.02274e+09,2671.0,21.0,3.0,50.6704,50.0,4.1823e-15,3.98122e-11,-6.125,-0.2
0.0,4.0,4.02648e+09,2671.0,21.0,3.0,51.8651,50.0,4.1823e-15,3.98122e-11,-4.125,-0.2
0.0,6.0,4.03022e+09,2671.0,21.0,3.0,53.0577,50.0,4.1823e-15,3.98122e-11,-2.125,-0.2
0.0,8.0,4.03397e+09,2671.0,21.0,3.0,54.248,50.0,4.1823e-15,3.98122e-11,-0.125,-0.2
0.0,10.0,4.03771e+09,2671.0,21.0,3.0,55.4362,50.0,4.1823e-15,3.98122e-11,1.875,-0.2
0.0,12.0,4.04145e+09,2671.0,21.0,3.0,56.6221,50.0,4.1823e-15,3.98122e-11,3.875,-0.2
0.0,14.0,4045190000.0,2671.0,21.0,3.0,57.8058,50.0,4.1823e-15,3.98122e-11,5.875,-0.2
0.0,16.0,4.04893e+09,2671.0,21.0,3.0,58.9874,50.0,4.1823e-15,3.98122e-11,7.875,-0.2
0.0,18.0,4.05452e+09,2671.0,21.0,3.0,60.7496,50.0,4.1823e-15,3.98122e-11,-6.625,-0.2
0.0,20.0,4.05827e+09,2671.0,21.0,3.0,61.9257,50.0,4.1823e-15,3.98122e-11,-4.625,-0.2
0.0,22.0,4.06201e+09,2671.0,21.0,3.0,63.0996,50.0,4.1823e-15,3.98122e-11,-2.625,-0.2
0.0,24.0,4.06575e+09,2671.0,21.0,3.0,64.2714,50.0,4.1823e-15,3.98122e-11,-0.625,-0.2
0.0,26.0,4.06949e+09,2671.0,21.0,3.0,65.4411,50.0,4.1823e-15,3.98122e-11,1.375,-0.2
0.0,28.0,4.07323e+09,2671.0,21.0,3.0,66.6086,50.0,4.1823e-15,3.98122e-11,3.375,-0.2
0.0,30.0,4.07697e+09,2671.0,21.0,3.0,67.7739,50.0,4.1823e-15,3.98122e-11,5.375,-0.2
0.0,32.0,4.08071e+09,2671.0,21.0,3.0,68.9371,50.0,4.1823e-15,3.98122e-11,7.375,-0.2
0.0,34.0,4.08659e+09,2271.0,23.0,3.0,79.4766,50.0,4.07026e-15,3.95907e-11,-6.875,0.2
0.0,36.0,4.09033e+09,2271.0,23.0,3.0,80.6344,50.0,4.07026e-15,3.95907e-11,-4.875,0.2
0.0,38.0,4.09407e+09,2271.0,23.0,3.0,81.79,50.0,4.07026e-15,3.95907e-11,-2.875,0.2
0.0,40.0,4.09781e+09,2271.0,23.0,3.0,82.9435,50.0,4.07026e-15,3.95907e-11,-0.875,0.2
0.0,42.0,4.10155e+09,2271.0,23.0,3.0,84.095,50.0,4.07026e-15,3.95907e-11,1.125,0.2
0.0,44.0,4.10529e+09,2271.0,23.0,3.0,85.2443,50.0,4.07026e-15,3.95907e-11,3.125,0.2
0.0,46.0,4.10903e+09,2271.0,23.0,3.0,86.3915,50.0,4.07026e-15,3.95907e-11,5.125,0.2
0.0,48.0,4112775000.0,2271.0,23.0,3.0,87.5366,50.0,4.07026e-15,3.95907e-11,7.125,0.2
0.0,50.0,4.11837e+09,2271.0,23.0,3.0,89.2446,50.0,4.07026e-15,3.95907e-11,-7.375,0.2
0.0,52.0,4.12211e+09,2271.0,23.0,3.0,90.3845,50.0,4.07026e-15,3.95907e-11,-5.375,0.2
0.0,54.0,4.12585e+09,2271.0,23.0,3.0,91.5224,50.0,4.07026e-15,3.95907e-11,-3.375,0.2
0.0,56.0,4.12959e+09,2271.0,23.0,3.0,92.6582,50.0,4.07026e-15,3.95907e-11,-1.375,0.2
0.0,58.0,4.13333e+09,2271.0,23.0,3.0,93.792,50.0,4.07026e-15,3.95907e-11,0.625,0.2
0.0,60.0,4.13708e+09,2271.0,23.0,3.0,94.9237,50.0,4.07026e-15,3.95907e-11,2.625,0.2
0.0,62.0,4.14082e+09,2271.0,23.0,3.0,96.0534,50.0,4.07026e-15,3.95907e-11,4.625,0.2
0.0,64.0,4.14456e+09,2271.0,23.0,3.0,97.181,50.0,4.07026e-15,3.95907e-11,6.625,0.2
1.0,0.0,4.15243e+09,2770.0,19.0,3.0,11.4079,50.0,3.95946e-15,0.0,-8.125,-0.2
1.0,2.0,4.15617e+09,2671.0,19.0,3.0,11.1282,50.0,3.95946e-15,3.93683e-11,-6.125,-0.2
1.0,4.0,4.15991e+09,2671.0,19.0,3.0,12.2475,50.0,3.95946e-15,3.93683e-11,-4.125,-0.2
1.0,6.0,4.16365e+09,2671.0,19.0,3.0,13.3648,50.0,3.95946e-15,3.93683e-11,-2.125,-0.2
1.0,8.0,4.16739e+09,2671.0,19.0,3.0,14.4802,50.0,3.95946e-15,3.93683e-11,-0.125,-0.2
1.0,10.0,4.17114e+09,2671.0,19.0,3.0,15.5935,50.0,3.95946e-15,3.93683e-11,1.875,-0.2
1.0,12.0,4.17488e+09,2671.0,19.0,3.0,16.7048,50.0,3.95946e-15,3.93683e-11,3.875,-0.2
1.0,14.0,4.17862e+09,2671.0,19.0,3.0,17.8141,50.0,3.95946e-15,3.93683e-11,5.875,-0.2
1.0,16.0,4.18236e+09,2671.0,19.0,3.0,18.9214,50.0,3.95946e-15,3.93683e-11,7.875,-0.2
1.0,18.0,4.18795e+09,2671.0,19.0,3.0,20.573,50.0,3.95946e-15,3.93683e-11,-6.625,-0.2
1.0,20.0,4.19169e+09,2671.0,19.0,3.0,21.6754,50.0,3.95946e-15,3.93683e-11,-4.625,-0.2
1.0,22.0,4.19544e+09,2671.0,19.0,3.0,22.7759,50.0,3.95946e-15,3.93683e-11,-2.625,-0.2
1.0,24.0,4.19918e+09,2671.0,19.0,3.0,23.8743,50.0,3.95946e-15,3.93683e-11,-0.625,-0.2
1.0,26.0,4.20292e+09,2671.0,19.0,3.0,24.9709,50.0,3.95946e-15,3.93683e-11,1.375,-0.2
1.0,28.0,4.20666e+09,2671.0,19.0,3.0,26.0654,50.0,3.95946e-15,3.93683e-11,3.375,-0.2
1.0,30.0,4.2104e+09,2671.0,19.0,3.0,27.158,50.0,3.95946e-15,3.93683e-11,5.375,-0.2
1.0,32.0,4.21414e+09,2671.0,19.0,3.0,28.2487,50.0,3.95946e-15,3.93683e-11,7.375,-0.2
1.0,34.0,4.22001e+09,2271.0,21.0,3.0,38.6886,50.0,3.85619e-15,3.91581e-11,-6.875,0.2
1.0,36.0,4.22376e+09,2271.0,21.0,3.0,39.7743,50.0,3.85619e-15,3.91581e-11,-4.875,0.2
1.0,38.0,4.2275e+09,2271.0,21.0,3.0,40.8581,50.0,3.85619e-15,3.91581e-11,-2.875,0.2
1.0,40.0,4.23124e+09,2271.0,21.0,3.0,41.94,50.0,3.85619e-15,3.91581e-11,-0.875,0.2
1.0,42.0,4.23498e+09,2271.0,21.0,3.0,43.02,50.0,3.85619e-15,3.91581e-11,1.125,0.2
1.0,44.0,4.23872e+09,2271.0,21.0,3.0,44.098,50.0,3.85619e-15,3.91581e-11,3.125,0.2
1.0,46.0,4.24246e+09,2271.0,21.0,3.0,45.1742,50.0,3.85619e-15,3.91581e-11,5.125,0.2
1.0,48.0,4.2462e+09,2271.0,21.0,3.0,46.2485,50.0,3.85619e-15,3.91581e-11,7.125,0.2
1.0,50.0,4.2518e+09,2271.0,21.0,3.0,47.8508,50.0,3.85619e-15,3.91581e-11,-7.375,0.2
1.0,52.0,4.25554e+09,2271.0,21.0,3.0,48.9204,50.0,3.85619e-15,3.91581e-11,-5.375,0.2
1.0,54.0,4.25928e+09,2271.0,21.0,3.0,49.988,50.0,3.85619e-15,3.91581e-11,-3.375,0.2
1.0,56.0,4.26302e+09,2271.0,21.0,3.0,51.0538,50.0,3.85619e-15,3.91581e-11,-1.375,0.2
1.0,58.0,4.26676e+09,2271.0,21.0,3.0,52.1178,50.0,3.85619e-15,3.91581e-11,0.625,0.2
1.0,60.0,4.2705e+09,2271.0,21.0,3.0,53.1799,50.0,3.85619e-15,3.91581e-11,2.625,0.2
1.0,62.0,4.27424e+09,2271.0,21.0,3.0,54.2401,50.0,3.85619e-15,3.91581e-11,4.625,0.2
1.0,64.0,4.27799e+09,2271.0,21.0,3.0,55.2984,50.0,3.85619e-15,3.91581e-11,6.625,0.2
2.0,0.0,4.28586e+09,2770.0,19.0,3.0,49.975,50.0,3.75394e-15,0.0,-8.125,-0.2
2.0,2.0,4.2896e+09,2671.0,19.0,3.0,49.4521,50.0,3.75394e-15,3.89468e-11,-6.125,-0.2
2.0,4.0,4.29334e+09,2671.0,19.0,3.0,50.5029,50.0,3.75394e-15,3.89468e-11,-4.125,-0.2
2.0,6.0,4.29708e+09,2671.0,19.0,3.0,51.5519,50.0,3.75394e-15,3.89468e-11,-2.125,-0.2
2.0,8.0,4.30082e+09,2671.0,19.0,3.0,52.599,50.0,3.75394e-15,3.89468e-11,-0.125,-0.2
2.0,10.0,4.30456e+09,2671.0,19.0,3.0,53.6444,50.0,3.75394e-15,3.89468e-11,1.875,-0.2
2.0,12.0,4.30831e+09,2671.0,19.0,3.0,54.6879,50.0,3.75394e-15,3.89468e-11,3.875,-0.2
2.0,14.0,4.31205e+09,2671.0,19.0,3.0,55.7296,50.0,3.75394e-15,3.89468e-11,5.875,-0.2
2.0,16.0,4.31579e+09,2671.0,19.0,3.0,56.7695,50.0,3.75394e-15,3.89468e-11,7.875,-0.2
2.0,18.0,4.32138e+09,2671.0,19.0,3.0,58.3206,50.0,3.75394e-15,3.89468e-11,-6.625,-0.2
2.0,20.0,4.32512e+09,2671.0,19.0,3.0,59.356,50.0,3.75394e-15,3.89468e-11,-4.625,-0.2
2.0,22.0,4.32886e+09,2671.0,19.0,3.0,60.3896,50.0,3.75394e-15,3.89468e-11,-2.625,-0.2
2.0,24.0,4.33261e+09,2671.0,19.0,3.0,61.4214,50.0,3.75394e-15,3.89468e-11,-0.625,-0.2
2.0,26.0,4.33635e+09,2671.0,19.0,3.0,62.4515,50.0,3.75394e-15,3.89468e-11,1.375,-0.2
2.0,28.0,4.34009e+09,2671.0,19.0,3.0,63.4798,50.0,3.75394e-15,3.89468e-11,3.375,-0.2
2.0,30.0,4.34383e+09,2671.0,19.0,3.0,64.5063,50.0,3.75394e-15,3.89468e-11,5.375,-0.2
2.0,32.0,4.34757e+09,2671.0,19.0,3.0,65.531,50.0,3.75394e-15,3.89468e-11,7.375,-0.2
2.0,34.0,4.35344e+09,2271.0,21.0,3.0,75.8801,50.0,3.65851e-15,3.8747e-11,-6.875,0.2
2.0,36.0,4.35718e+09,2271.0,21.0,3.0,76.9004,50.0,3.65851e-15,3.8747e-11,-4.875,0.2
2.0,38.0,4.36092e+09,2271.0,21.0,3.0,77.9188,50.0,3.65851e-15,3.8747e-11,-2.875,0.2
2.0,40.0,4.36467e+09,2271.0,21.0,3.0,78.9355,50.0,3.65851e-15,3.8747e-11,-0.875,0.2
2.0,42.0,4.36841e+09,2271.0,21.0,3.0,79.9505,50.0,3.65851e-15,3.8747e-11,1.125,0.2
2.0,44.0,4.37215e+09,2271.0,21.0,3.0,80.9638,50.0,3.65851e-15,3.8747e-11,3.125,0.2
2.0,46.0,4.37589e+09,2271.0,21.0,3.0,81.9753,50.0,3.65851e-15,3.8747e-11,5.125,0.2
2.0,48.0,4.37963e+09,2271.0,21.0,3.0,82.9851,50.0,3.65851e-15,3.8747e-11,7.125,0.2
2.0,50.0,4.38523e+09,2271.0,21.0,3.0,84.4913,50.0,3.65851e-15,3.8747e-11,-7.375,0.2
2.0,52.0,4.38897e+09,2271.0,21.0,3.0,85.4968,50.0,3.65851e-15,3.8747e-11,-5.375,0.2
2.0,54.0,4.39271e+09,2271.0,21.0,3.0,86.5006,50.0,3.65851e-15,3.8747e-11,-3.375,0.2
2.0,56.0,4.39645e+09,2271.0,21.0,3.0,87.5027,50.0,3.65851e-15,3.8747e-11,-1.375,0.2
2.0,58.0,4.40019e+09,2271.0,21.0,3.0,88.503,50.0,3.65851e-15,3.8747e-11,0.625,0.2
2.0,60.0,4.40393e+09,2271.0,21.0,3.0,89.5017,50.0,3.65851e-15,3.8747e-11,2.625,0.2
2.0,62.0,4.40767e+09,2271.0,21.0,3.0,90.4987,50.0,3.65851e-15,3.8747e-11,4.625,0.2
2.0,64.0,4.41142e+09,2271.0,21.0,3.0,91.4939,50.0,3.65851e-15,3.8747e-11,6.625,0.2
3.0,0.0,4.41929e+09,2770.0,17.0,3.0,5.80946,50.0,3.56391e-15,0.0,-8.125,-0.2
3.0,2.0,4.42303e+09,2671.0,17.0,3.0,5.05823,50.0,3.56391e-15,3.85462e-11,-6.125,-0.2
3.0,4.0,4.42677e+09,2671.0,17.0,3.0,6.04662,50.0,3.56391e-15,3.85462e-11,-4.125,-0.2
3.0,6.0,4.43051e+09,2671.0,17.0,3.0,7.03333,50.0,3.56391e-15,3.85462e-11,-2.125,-0.2
3.0,8.0,4.43425e+09,2671.0,17.0,3.0,8.01838,50.0,3.56391e-15,3.85462e-11,-0.125,-0.2
3.0,10.0,4.43799e+09,2671.0,17.0,3.0,9.00177,50.0,3.56391e-15,3.85462e-11,1.875,-0.2
3.0,12.0,4.44173e+09,2671.0,17.0,3.0,9.9835,50.0,3.56391e-15,3.85462e-11,3.875,-0.2
3.0,14.0,4.44548e+09,2671.0,17.0,3.0,10.9636,50.0,3.56391e-15,3.85462e-11,5.875,-0.2
3.0,16.0,4.44922e+09,2671.0,17.0,3.0,11.942,50.0,3.56391e-15,3.85462e-11,7.875,-0.2
3.0,18.0,4454810000.0,2671.0,17.0,3.0,13.4015,50.0,3.56391e-15,3.85462e-11,-6.625,-0.2
3.0,20.0,4.45855e+09,2671.0,17.0,3.0,14.3759,50.0,3.56391e-15,3.85462e-11,-4.625,-0.2
3.0,22.0,4.46229e+09,2671.0,17.0,3.0,15.3486,50.0,3.56391e-15,3.85462e-11,-2.625,-0.2
3.0,24.0,4.46603e+09,2671.0,17.0,3.0,16.3197,50.0,3.56391e-15,3.85462e-11,-0.625,-0.2
3.0,26.0,4.46978e+09,2671.0,17.0,3.0,17.2891,50.0,3.56391e-15,3.85462e-11,1.375,-0.2
3.0,28.0,4.47352e+09,2671.0,17.0,3.0,18.2569,50.0,3.56391e-15,3.85462e-11,3.375,-0.2
3.0,30.0,4.47726e+09,2671.0,17.0,3.0,19.2231,50.0,3.56391e-15,3.85462e-11,5.375,-0.2
3.0,32.0,4481000000.0,2671.0,17.0,3.0,20.1877,50.0,3.56391e-15,3.85462e-11,7.375,-0.2
3.0,34.0,4.52087e+09,2271.0,19.0,3.0,39.0379,50.0,3.43106e-15,3.82595e-11,-6.875,0.2
3.0,36.0,4.52461e+09,2271.0,19.0,3.0,39.984,50.0,3.43106e-15,3.82595e-11,-4.875,0.2
3.0,38.0,4.52835e+09,2271.0,19.0,3.0,40.9285,50.0,3.43106e-15,3.82595e-11,-2.875,0.2
3.0,40.0,4532095000.0,2271.0,19.0,3.0,41.8715,50.0,3.43106e-15,3.82595e-11,-0.875,0.2
3.0,42.0,4.53584e+09,2271.0,19.0,3.0,42.8129,50.0,3.43106e-15,3.82595e-11,1.125,0.2
3.0,44.0,4.53958e+09,2271.0,19.0,3.0,43.7528,50.0,3.43106e-15,3.82595e-11,3.125,0.2
3.0,46.0,4.54332e+09,2271.0,19.0,3.0,44.6911,50.0,3.43106e-15,3.82595e-11,5.125,0.2
3.0,48.0,4.54706e+09,2271.0,19.0,3.0,45.6278,50.0,3.43106e-15,3.82595e-11,7.125,0.2
3.0,50.0,4.55265e+09,2271.0,19.0,3.0,47.0253,50.0,3.43106e-15,3.82595e-11,-7.375,0.2
3.0,52.0,4.55639e+09,2271.0,19.0,3.0,47.9582,50.0,3.43106e-15,3.82595e-11,-5.375,0.2
3.0,54.0,4.56014e+09,2271.0,19.0,3.0,48.8896,50.0,3.43106e-15,3.82595e-11,-3.375,0.2
3.0,56.0,4.56388e+09,2271.0,19.0,3.0,49.8194,50.0,3.43106e-15,3.82595e-11,-1.375,0.2
3.0,58.0,4.56762e+09,2271.0,19.0,3.0,50.7478,50.0,3.43106e-15,3.82595e-11,0.625,0.2
3.0,60.0,4.57136e+09,2271.0,19.0,3.0,51.6746,50.0,3.43106e-15,3.82595e-11,2.625,0.2
3.0,62.0,4.5751e+09,2271.0,19.0,3.0,52.5999,50.0,3.43106e-15,3.82595e-11,4.625,0.2
3.0,64.0,4.57884e+09,2271.0,19.0,3.0,53.5237,50.0,3.43106e-15,3.82595e-11,6.625,0.2
4.0,0.0,4.58471e+09,2770.0,17.0,3.0,47.8175,50.0,3.34748e-15,0.0,-8.125,-0.2
4.0,2.0,4.58846e+09,2671.0,17.0,3.0,46.8016,50.0,3.34748e-15,3.80762e-11,-6.125,-0.2
4.0,4.0,4.5922e+09,2671.0,17.0,3.0,47.7201,50.0,3.34748e-15,3.80762e-11,-4.125,-0.2
4.0,6.0,4.59594e+09,2671.0,17.0,3.0,48.637,50.0,3.34748e-15,3.80762e-11,-2.125,-0.2
4.0,8.0,4.59968e+09,2671.0,17.0,3.0,49.5524,50.0,3.34748e-15,3.80762e-11,-0.125,-0.2
4.0,10.0,4.60342e+09,2671.0,17.0,3.0,50.4664,50.0,3.34748e-15,3.80762e-11,1.875,-0.2
4.0,12.0,4.60716e+09,2671.0,17.0,3.0,51.3789,50.0,3.34748e-15,3.80762e-11,3.875,-0.2
4.0,14.0,4.6109e+09,2671.0,17.0,3.0,52.2898,50.0,3.34748e-15,3.80762e-11,5.875,-0.2
4.0,16.0,4.61465e+09,2671.0,17.0,3.0,53.1994,50.0,3.34748e-15,3.80762e-11,7.875,-0.2
4.0,18.0,4.62024e+09,2671.0,17.0,3.0,54.5562,50.0,3.34748e-15,3.80762e-11,-6.625,-0.2
4.0,20.0,4.62398e+09,2671.0,17.0,3.0,55.462,50.0,3.34748e-15,3.80762e-11,-4.625,-0.2
4.0,22.0,4.62772e+09,2671.0,17.0,3.0,56.3664,50.0,3.34748e-15,3.80762e-11,-2.625,-0.2
4.0,24.0,4.63146e+09,2671.0,17.0,3.0,57.2693,50.0,3.34748e-15,3.80762e-11,-0.625,-0.2
4.0,26.0,4.6352e+09,2671.0,17.0,3.0,58.1708,50.0,3.34748e-15,3.80762e-11,1.375,-0.2
4.0,28.0,4.63895e+09,2671.0,17.0,3.0,59.0708,50.0,3.34748e-15,3.80762e-11,3.375,-0.2
4.0,30.0,4.64269e+09,2671.0,17.0,3.0,59.9693,50.0,3.34748e-15,3.80762e-11,5.375,-0.2
4.0,32.0,4.64643e+09,2671.0,17.0,3.0,60.8664,50.0,3.34748e-15,3.80762e-11,7.375,-0.2
4.0,34.0,4.6543e+09,2271.0,19.0,3.0,71.5129,50.0,3.26444e-15,3.78918e-11,-6.875,0.2
4.0,36.0,4.65804e+09,2271.0,19.0,3.0,72.4056,50.0,3.26444e-15,3.78918e-11,-4.875,0.2
4.0,38.0,4.66178e+09,2271.0,19.0,3.0,73.2968,50.0,3.26444e-15,3.78918e-11,-2.875,0.2
4.0,40.0,4.66552e+09,2271.0,19.0,3.0,74.1865,50.0,3.26444e-15,3.78918e-11,-0.875,0.2
4.0,42.0,4.66927e+09,2271.0,19.0,3.0,75.0749,50.0,3.26444e-15,3.78918e-11,1.125,0.2
4.0,44.0,4.67301e+09,2271.0,19.0,3.0,75.9618,50.0,3.26444e-15,3.78918e-11,3.125,0.2
4.0,46.0,4.67675e+09,2271.0,19.0,3.0,76.8473,50.0,3.26444e-15,3.78918e-11,5.125,0.2
4.0,48.0,4.68049e+09,2271.0,19.0,3.0,77.7314,50.0,3.26444e-15,3.78918e-11,7.125,0.2
4.0,50.0,4.68608e+09,2271.0,19.0,3.0,79.0504,50.0,3.26444e-15,3.78918e-11,-7.375,0.2
4.0,52.0,4.68982e+09,2271.0,19.0,3.0,79.9309,50.0,3.26444e-15,3.78918e-11,-5.375,0.2
4.0,54.0,4693565000.0,2271.0,19.0,3.0,80.8101,50.0,3.26444e-15,3.78918e-11,-3.375,0.2
4.0,56.0,4.69731e+09,2271.0,19.0,3.0,81.6879,50.0,3.26444e-15,3.78918e-11,-1.375,0.2
4.0,58.0,4.70105e+09,2271.0,19.0,3.0,82.5642,50.0,3.26444e-15,3.78918e-11,0.625,0.2
4.0,60.0,4.70479e+09,2271.0,19.0,3.0,83.4392,50.0,3.26444e-15,3.78918e-11,2.625,0.2
4.0,62.0,4.70853e+09,2271.0,19.0,3.0,84.3128,50.0,3.26444e-15,3.78918e-11,4.625,0.2
4.0,64.0,4.71227e+09,2271.0,19.0,3.0,85.185,50.0,3.26444e-15,3.78918e-11,6.625,0.2
5.0,0.0,4.71814e+09,2770.0,17.0,3.0,79.5563,50.0,3.18672e-15,0.0,-8.125,-0.2
5.0,2.0,4.72188e+09,2671.0,17.0,3.0,78.3406,50.0,3.18672e-15,3.77171e-11,-6.125,-0.2
5.0,4.0,4.72563e+09,2671.0,17.0,3.0,79.2079,50.0,3.18672e-15,3.77171e-11,-4.125,-0.2
5.0,6.0,4.72937e+09,2671.0,17.0,3.0,80.0738,50.0,3.18672e-15,3.77171e-11,-2.125,-0.2
5.0,8.0,4.73311e+09,2671.0,17.0,3.0,80.9383,50.0,3.18672e-15,3.77171e-11,-0.125,-0.2
5.0,10.0,4736850000.0,2671.0,17.0,3.0,81.8015,50.0,3.18672e-15,3.77171e-11,1.875,-0.2
5.0,12.0,4.74059e+09,2671.0,17.0,3.0,82.6633,50.0,3.18672e-15,3.77171e-11,3.875,-0.2
5.0,14.0,4.74433e+09,2671.0,17.0,3.0,83.5237,50.0,3.18672e-15,3.77171e-11,5.875,-0.2
5.0,16.0,4.74807e+09,2671.0,17.0,3.0,84.3828,50.0,3.18672e-15,3.77171e-11,7.875,-0.2
5.0,18.0,4.75367e+09,2671.0,17.0,3.0,85.6645,50.0,3.18672e-15,3.77171e-11,-6.625,-0.2
5.0,20.0,4.75741e+09,2671.0,17.0,3.0,86.5202,50.0,3.18672e-15,3.77171e-11,-4.625,-0.2
5.0,22.0,4761150000.0,2671.0,17.0,3.0,87.3746,50.0,3.18672e-15,3.77171e-11,-2.625,-0.2
5.0,24.0,4.76489e+09,2671.0,17.0,3.0,88.2276,50.0,3.18672e-15,3.77171e-11,-0.625,-0.2
5.0,26.0,4.76863e+09,2671.0,17.0,3.0,89.0793,50.0,3.18672e-15,3.77171e-11,1.375,-0.2
5.0,28.0,4.77237e+09,2671.0,17.0,3.0,89.9297,50.0,3.18672e-15,3.77171e-11,3.375,-0.2
5.0,30.0,4.77612e+09,2671.0,17.0,3.0,90.7787,50.0,3.18672e-15,3.77171e-11,5.375,-0.2
5.0,32.0,4.77986e+09,2671.0,17.0,3.0,91.6264,50.0,3.18672e-15,3.77171e-11,7.375,-0.2
5.0,34.0,4.78773e+09,2271.0,17.0,3.0,21.772,50.0,3.10944e-15,3.75413e-11,-6.875,0.2
5.0,36.0,4.79147e+09,2271.0,17.0,3.0,22.6156,50.0,3.10944e-15,3.75413e-11,-4.875,0.2
5.0,38.0,4.79521e+09,2271.0,17.0,3.0,23.4579,50.0,3.10944e-15,3.75413e-11,-2.875,0.2
5.0,40.0,4.79895e+09,2271.0,17.0,3.0,24.2988,50.0,3.10944e-15,3.75413e-11,-0.875,0.2
5.0,42.0,4.80269e+09,2271.0,17.0,3.0,25.1385,50.0,3.10944e-15,3.75413e-11,1.125,0.2
5.0,44.0,4806435000.0,2271.0,17.0,3.0,25.9768,50.0,3.10944e-15,3.75413e-11,3.125,0.2
5.0,46.0,4.81018e+09,2271.0,17.0,3.0,26.8139,50.0,3.10944e-15,3.75413e-11,5.125,0.2
5.0,48.0,4.81392e+09,2271.0,17.0,3.0,27.6496,50.0,3.10944e-15,3.75413e-11,7.125,0.2
5.0,50.0,4.81951e+09,2271.0,17.0,3.0,28.8965,50.0,3.10944e-15,3.75413e-11,-7.375,0.2
5.0,52.0,4.82325e+09,2271.0,17.0,3.0,29.729,50.0,3.10944e-15,3.75413e-11,-5.375,0.2
5.0,54.0,4.82699e+09,2271.0,17.0,3.0,30.5602,50.0,3.10944e-15,3.75413e-11,-3.375,0.2
5.0,56.0,4.83073e+09,2271.0,17.0,3.0,31.3902,50.0,3.10944e-15,3.75413e-11,-1.375,0.2
5.0,58.0,4.83448e+09,2271.0,17.0,3.0,32.2188,50.0,3.10944e-15,3.75413e-11,0.625,0.2
5.0,60.0,4.83822e+09,2271.0,17.0,3.0,33.0462,50.0,3.10944e-15,3.75413e-11,2.625,0.2
5.0,62.0,4.84196e+09,2271.0,17.0,3.0,33.8723,50.0,3.10944e-15,3.75413e-11,4.625,0.2
5.0,64.0,4.8457e+09,2271.0,17.0,3.0,34.6971,50.0,3.10944e-15,3.75413e-11,6.625,0.2
6.0,0.0,4.85157e+09,2770.0,15.0,3.0,29.1447,50.0,3.03703e-15,0.0,-8.125,-0.2
6.0,2.0,4.85531e+09,2671.0,15.0,3.0,27.7402,50.0,3.03703e-15,3.73747e-11,-6.125,-0.2
6.0,4.0,4.85905e+09,2671.0,15.0,3.0,28.5605,50.0,3.03703e-15,3.73747e-11,-4.125,-0.2
6.0,6.0,4.8628e+09,2671.0,15.0,3.0,29.3795,50.0,3.03703e-15,3.73747e-11,-2.125,-0.2
6.0,8.0,4.86654e+09,2671.0,15.0,3.0,30.1973,50.0,3.03703e-15,3.73747e-11,-0.125,-0.2
6.0,10.0,4.87028e+09,2671.0,15.0,3.0,31.0138,50.0,3.03703e-15,3.73747e-11,1.875,-0.2
6.0,12.0,4.87402e+09,2671.0,15.0,3.0,31.8291,50.0,3.03703e-15,3.73747e-11,3.875,-0.2
6.0,14.0,4.87776e+09,2671.0,15.0,3.0,32.6431,50.0,3.03703e-15,3.73747e-11,5.875,-0.2
6.0,16.0,4.8815e+09,2671.0,15.0,3.0,33.4558,50.0,3.03703e-15,3.73747e-11,7.875,-0.2
6.0,18.0,4.8871e+09,2671.0,15.0,3.0,34.6684,50.0,3.03703e-15,3.73747e-11,-6.625,-0.2
6.0,20.0,4.89084e+09,2671.0,15.0,3.0,35.4781,50.0,3.03703e-15,3.73747e-11,-4.625,-0.2
6.0,22.0,4.89458e+09,2671.0,15.0,3.0,36.2865,50.0,3.03703e-15,3.73747e-11,-2.625,-0.2
6.0,24.0,4.89832e+09,2671.0,15.0,3.0,37.0937,50.0,3.03703e-15,3.73747e-11,-0.625,-0.2
6.0,26.0,4.90206e+09,2671.0,15.0,3.0,37.8996,50.0,3.03703e-15,3.73747e-11,1.375,-0.2
6.0,28.0,4.9058e+09,2671.0,15.0,3.0,38.7043,50.0,3.03703e-15,3.73747e-11,3.375,-0.2
6.0,30.0,4.90954e+09,2671.0,15.0,3.0,39.5078,50.0,3.03703e-15,3.73747e-11,5.375,-0.2
6.0,32.0,4.91329e+09,2671.0,15.0,3.0,40.3101,50.0,3.03703e-15,3.73747e-11,7.375,-0.2
6.0,34.0,4.92116e+09,2271.0,17.0,3.0,50.776,50.0,2.96495e-15,3.72069e-11,-6.875,0.2
6.0,36.0,4.9249e+09,2271.0,17.0,3.0,51.5745,50.0,2.96495e-15,3.72069e-11,-4.875,0.2
6.0,38.0,4.92864e+09,2271.0,17.0,3.0,52.3718,50.0,2.96495e-15,3.72069e-11,-2.875,0.2
6.0,40.0,4.93238e+09,2271.0,17.0,3.0,53.1678,50.0,2.96495e-15,3.72069e-11,-0.875,0.2
6.0,42.0,4.93612e+09,2271.0,17.0,3.0,53.9627,50.0,2.96495e-15,3.72069e-11,1.125,0.2
6.0,44.0,4.93986e+09,2271.0,17.0,3.0,54.7563,50.0,2.96495e-15,3.72069e-11,3.125,0.2
6.0,46.0,4.94361e+09,2271.0,17.0,3.0,55.5488,50.0,2.96495e-15,3.72069e-11,5.125,0.2
6.0,48.0,4.94735e+09,2271.0,17.0,3.0,56.34,50.0,2.96495e-15,3.72069e-11,7.125,0.2
6.0,50.0,4.95294e+09,2271.0,17.0,3.0,57.5206,50.0,2.96495e-15,3.72069e-11,-7.375,0.2
6.0,52.0,4.95668e+09,2271.0,17.0,3.0,58.3089,50.0,2.96495e-15,3.72069e-11,-5.375,0.2
6.0,54.0,4.96042e+09,2271.0,17.0,3.0,59.096,50.0,2.96495e-15,3.72069e-11,-3.375,0.2
6.0,56.0,4.96416e+09,2271.0,17.0,3.0,59.8819,50.0,2.96495e-15,3.72069e-11,-1.375,0.2
6.0,58.0,4967905000.0,2271.0,17.0,3.0,60.6666,50.0,2.96495e-15,3.72069e-11,0.625,0.2
6.0,60.0,4.97165e+09,2271.0,17.0,3.0,61.4501,50.0,2.96495e-15,3.72069e-11,2.625,0.2
6.0,62.0,4.97539e+09,2271.0,17.0,3.0,62.2325,50.0,2.96495e-15,3.72069e-11,4.625,0.2
6.0,64.0,4.97913e+09,2271.0,17.0,3.0,63.0137,50.0,2.96495e-15,3.72069e-11,6.625,0.2
7.0,0.0,5019000000.0,2770.0,15.0,3.0,64.5301,50.0,2.86326e-15,0.0,-8.125,-0.2
7.0,2.0,5.02274e+09,2671.0,15.0,3.0,62.903,50.0,2.86326e-15,3.69668e-11,-6.125,-0.2
7.0,4.0,5.02648e+09,2671.0,15.0,3.0,63.6695,50.0,2.86326e-15,3.69668e-11,-4.125,-0.2
7.0,6.0,5.03022e+09,2671.0,15.0,3.0,64.4349,50.0,2.86326e-15,3.69668e-11,-2.125,-0.2
7.0,8.0,5.03397e+09,2671.0,15.0,3.0,65.1991,50.0,2.86326e-15,3.69668e-11,-0.125,-0.2
7.0,10.0,5.03771e+09,2671.0,15.0,3.0,65.9622,50.0,2.86326e-15,3.69668e-11,1.875,-0.2
7.0,12.0,5.04145e+09,2671.0,15.0,3.0,66.7242,50.0,2.86326e-15,3.69668e-11,3.875,-0.2
7.0,14.0,5045190000.0,2671.0,15.0,3.0,67.4851,50.0,2.86326e-15,3.69668e-11,5.875,-0.2
7.0,16.0,5.04893e+09,2671.0,15.0,3.0,68.2448,50.0,2.86326e-15,3.69668e-11,7.875,-0.2
7.0,18.0,5.05452e+09,2671.0,15.0,3.0,69.3784,50.0,2.86326e-15,3.69668e-11,-6.625,-0.2
7.0,20.0,5.05827e+09,2671.0,15.0,3.0,70.1353,50.0,2.86326e-15,3.69668e-11,-4.625,-0.2
7.0,22.0,5.06201e+09,2671.0,15.0,3.0,70.8911,50.0,2.86326e-15,3.69668e-11,-2.625,-0.2
7.0,24.0,5.06575e+09,2671.0,15.0,3.0,71.6458,50.0,2.86326e-15,3.69668e-11,-0.625,-0.2
7.0,26.0,5.06949e+09,2671.0,15.0,3.0,72.3993,50.0,2.86326e-15,3.69668e-11,1.375,-0.2
7.0,28.0,5.07323e+09,2671.0,15.0,3.0,73.1518,50.0,2.86326e-15,3.69668e-11,3.375,-0.2
7.0,30.0,5.07697e+09,2671.0,15.0,3.0,73.9032,50.0,2.86326e-15,3.69668e-11,5.375,-0.2
7.0,32.0,5.08071e+09,2671.0,15.0,3.0,74.6534,50.0,2.86326e-15,3.69668e-11,7.375,-0.2
7.0,34.0,5.08658e+09,2271.0,15.0,3.0,4.21754,50.0,2.79897e-15,3.68129e-11,-6.875,0.2
7.0,36.0,5.09033e+09,2271.0,15.0,3.0,4.96495,50.0,2.79897e-15,3.68129e-11,-4.875,0.2
7.0,38.0,5.09407e+09,2271.0,15.0,3.0,5.71127,50.0,2.79897e-15,3.68129e-11,-2.875,0.2
7.0,40.0,5.09781e+09,2271.0,15.0,3.0,6.45649,50.0,2.79897e-15,3.68129e-11,-0.875,0.2
7.0,42.0,5.10155e+09,2271.0,15.0,3.0,7.20061,50.0,2.79897e-15,3.68129e-11,1.125,0.2
7.0,44.0,5.10529e+09,2271.0,15.0,3.0,7.94365,50.0,2.79897e-15,3.68129e-11,3.125,0.2
7.0,46.0,5.10903e+09,2271.0,15.0,3.0,8.68559,50.0,2.79897e-15,3.68129e-11,5.125,0.2
7.0,48.0,5.11277e+09,2271.0,15.0,3.0,9.42645,50.0,2.79897e-15,3.68129e-11,7.125,0.2
7.0,50.0,5.11837e+09,2271.0,15.0,3.0,10.5319,50.0,2.79897e-15,3.68129e-11,-7.375,0.2
7.0,52.0,5.12211e+09,2271.0,15.0,3.0,11.2701,50.0,2.79897e-15,3.68129e-11,-5.375,0.2
7.0,54.0,5.12585e+09,2271.0,15.0,3.0,12.0072,50.0,2.79897e-15,3.68129e-11,-3.375,0.2
7.0,56.0,5.12959e+09,2271.0,15.0,3.0,12.7432,50.0,2.79897e-15,3.68129e-11,-1.375,0.2
7.0,58.0,5.13333e+09,2271.0,15.0,3.0,13.4781,50.0,2.79897e-15,3.68129e-11,0.625,0.2
7.0,60.0,5.13708e+09,2271.0,15.0,3.0,14.212,50.0,2.79897e-15,3.68129e-11,2.625,0.2
7.0,62.0,5.14082e+09,2271.0,15.0,3.0,14.9448,50.0,2.79897e-15,3.68129e-11,4.625,0.2
7.0,64.0,5.14456e+09,2271.0,15.0,3.0,15.6765,50.0,2.79897e-15,3.68129e-11,6.625,0.2
8.0,0.0,5.15243e+09,2770.0,13.0,3.0,10.6784,50.0,2.73489e-15,0.0,-8.125,-0.2
8.0,2.0,5.15617e+09,2671.0,13.0,3.0,8.88417,50.0,2.73489e-15,3.66579e-11,-6.125,-0.2
8.0,4.0,5.15991e+09,2671.0,13.0,3.0,9.61155,50.0,2.73489e-15,3.66579e-11,-4.125,-0.2
8.0,6.0,5.16365e+09,2671.0,13.0,3.0,10.3379,50.0,2.73489e-15,3.66579e-11,-2.125,-0.2
8.0,8.0,5.16739e+09,2671.0,13.0,3.0,11.0632,50.0,2.73489e-15,3.66579e-11,-0.125,-0.2
8.0,10.0,5.17114e+09,2671.0,13.0,3.0,11.7874,50.0,2.73489e-15,3.66579e-11,1.875,-0.2
8.0,12.0,5.17488e+09,2671.0,13.0,3.0,12.5106,50.0,2.73489e-15,3.66579e-11,3.875,-0.2
8.0,14.0,5.17862e+09,2671.0,13.0,3.0,13.2327,50.0,2.73489e-15,3.66579e-11,5.875,-0.2
8.0,16.0,5.18236e+09,2671.0,13.0,3.0,13.9538,50.0,2.73489e-15,3.66579e-11,7.875,-0.2
8.0,18.0,5.18795e+09,2671.0,13.0,3.0,15.0298,50.0,2.73489e-15,3.66579e-11,-6.625,-0.2
8.0,20.0,5.19169e+09,2671.0,13.0,3.0,15.7483,50.0,2.73489e-15,3.66579e-11,-4.625,-0.2
8.0,22.0,5.19544e+09,2671.0,13.0,3.0,16.4657,50.0,2.73489e-15,3.66579e-11,-2.625,-0.2
8.0,24.0,5.19918e+09,2671.0,13.0,3.0,17.1822,50.0,2.73489e-15,3.66579e-11,-0.625,-0.2
8.0,26.0,5.20292e+09,2671.0,13.0,3.0,17.8976,50.0,2.73489e-15,3.66579e-11,1.375,-0.2
8.0,28.0,5206660000.0,2671.0,13.0,3.0,18.6119,50.0,2.73489e-15,3.66579e-11,3.375,-0.2
8.0,30.0,5.2104e+09,2671.0,13.0,3.0,19.3253,50.0,2.73489e-15,3.66579e-11,5.375,-0.2
8.0,32.0,5.21414e+09,2671.0,13.0,3.0,20.0376,50.0,2.73489e-15,3.66579e-11,7.375,-0.2
8.0,34.0,5.22001e+09,2271.0,15.0,3.0,29.9563,50.0,2.67469e-15,3.65107e-11,-6.875,0.2
8.0,36.0,5223755000.0,2271.0,15.0,3.0,30.666,50.0,2.67469e-15,3.65107e-11,-4.875,0.2
8.0,38.0,5.2275e+09,2271.0,15.0,3.0,31.3747,50.0,2.67469e-15,3.65107e-11,-2.875,0.2
8.0,40.0,5.23124e+09,2271.0,15.0,3.0,32.0824,50.0,2.67469e-15,3.65107e-11,-0.875,0.2
8.0,42.0,5.23498e+09,2271.0,15.0,3.0,32.789,50.0,2.67469e-15,3.65107e-11,1.125,0.2
8.0,44.0,5.23872e+09,2271.0,15.0,3.0,33.4947,50.0,2.67469e-15,3.65107e-11,3.125,0.2
8.0,46.0,5.24246e+09,2271.0,15.0,3.0,34.1993,50.0,2.67469e-15,3.65107e-11,5.125,0.2
8.0,48.0,5.2462e+09,2271.0,15.0,3.0,34.903,50.0,2.67469e-15,3.65107e-11,7.125,0.2
8.0,50.0,5.2518e+09,2271.0,15.0,3.0,35.9529,50.0,2.67469e-15,3.65107e-11,-7.375,0.2
8.0,52.0,5.25554e+09,2271.0,15.0,3.0,36.6541,50.0,2.67469e-15,3.65107e-11,-5.375,0.2
8.0,54.0,5.25928e+09,2271.0,15.0,3.0,37.3542,50.0,2.67469e-15,3.65107e-11,-3.375,0.2
8.0,56.0,5.26302e+09,2271.0,15.0,3.0,38.0534,50.0,2.67469e-15,3.65107e-11,-1.375,0.2
8.0,58.0,5.26676e+09,2271.0,15.0,3.0,38.7515,50.0,2.67469e-15,3.65107e-11,0.625,0.2
8.0,60.0,5.2705e+09,2271.0,15.0,3.0,39.4487,50.0,2.67469e-15,3.65107e-11,2.625,0.2
8.0,62.0,5274245000.0,2271.0,15.0,3.0,40.1449,50.0,2.67469e-15,3.65107e-11,4.625,0.2
8.0,64.0,5.27799e+09,2271.0,15.0,3.0,40.8401,50.0,2.67469e-15,3.65107e-11,6.625,0.2
9.0,0.0,5.28586e+09,2770.0,13.0,3.0,35.8945,50.0,2.61463e-15,0.0,-8.125,-0.2
9.0,2.0,5.2896e+09,2671.0,13.0,3.0,33.9417,50.0,2.61463e-15,3.63624e-11,-6.125,-0.2
9.0,4.0,5293340000.0,2671.0,13.0,3.0,34.6329,50.0,2.61463e-15,3.63624e-11,-4.125,-0.2
9.0,6.0,5.29708e+09,2671.0,13.0,3.0,35.3231,50.0,2.61463e-15,3.63624e-11,-2.125,-0.2
9.0,8.0,5.30082e+09,2671.0,13.0,3.0,36.0123,50.0,2.61463e-15,3.63624e-11,-0.125,-0.2
9.0,10.0,5.30456e+09,2671.0,13.0,3.0,36.7005,50.0,2.61463e-15,3.63624e-11,1.875,-0.2
9.0,12.0,5.30831e+09,2671.0,13.0,3.0,37.3878,50.0,2.61463e-15,3.63624e-11,3.875,-0.2
9.0,14.0,5.31205e+09,2671.0,13.0,3.0,38.0741,50.0,2.61463e-15,3.63624e-11,5.875,-0.2
9.0,16.0,5.31579e+09,2671.0,13.0,3.0,38.7594,50.0,2.61463e-15,3.63624e-11,7.875,-0.2
9.0,18.0,5.32138e+09,2671.0,13.0,3.0,39.7821,50.0,2.61463e-15,3.63624e-11,-6.625,-0.2
9.0,20.0,5.32512e+09,2671.0,13.0,3.0,40.4651,50.0,2.61463e-15,3.63624e-11,-4.625,-0.2
9.0,22.0,5.32886e+09,2671.0,13.0,3.0,41.147,50.0,2.61463e-15,3.63624e-11,-2.625,-0.2
9.0,24.0,5.33261e+09,2671.0,13.0,3.0,41.828,50.0,2.61463e-15,3.63624e-11,-0.625,-0.2
9.0,26.0,5.33635e+09,2671.0,13.0,3.0,42.5081,50.0,2.61463e-15,3.63624e-11,1.375,-0.2
9.0,28.0,5.34009e+09,2671.0,13.0,3.0,43.1872,50.0,2.61463e-15,3.63624e-11,3.375,-0.2
9.0,30.0,5.34383e+09,2671.0,13.0,3.0,43.8654,50.0,2.61463e-15,3.63624e-11,5.375,-0.2
9.0,32.0,5.34757e+09,2671.0,13.0,3.0,44.5426,50.0,2.61463e-15,3.63624e-11,7.375,-0.2
9.0,34.0,5.35344e+09,2271.0,15.0,3.0,54.4128,50.0,2.55817e-15,3.62215e-11,-6.875,0.2
9.0,36.0,5.35718e+09,2271.0,15.0,3.0,55.0875,50.0,2.55817e-15,3.62215e-11,-4.875,0.2
9.0,38.0,5.36092e+09,2271.0,15.0,3.0,55.7614,50.0,2.55817e-15,3.62215e-11,-2.875,0.2
9.0,40.0,5.36467e+09,2271.0,15.0,3.0,56.4343,50.0,2.55817e-15,3.62215e-11,-0.875,0.2
9.0,42.0,5.36841e+09,2271.0,15.0,3.0,57.1062,50.0,2.55817e-15,3.62215e-11,1.125,0.2
9.0,44.0,5.37215e+09,2271.0,15.0,3.0,57.7773,50.0,2.55817e-15,3.62215e-11,3.125,0.2
9.0,46.0,5.37589e+09,2271.0,15.0,3.0,58.4474,50.0,2.55817e-15,3.62215e-11,5.125,0.2
9.0,48.0,5.37963e+09,2271.0,15.0,3.0,59.1165,50.0,2.55817e-15,3.62215e-11,7.125,0.2
9.0,50.0,5.38523e+09,2271.0,15.0,3.0,60.1151,50.0,2.55817e-15,3.62215e-11,-7.375,0.2
9.0,52.0,5.38897e+09,2271.0,15.0,3.0,60.7819,50.0,2.55817e-15,3.62215e-11,-5.375,0.2
9.0,54.0,5.39271e+09,2271.0,15.0,3.0,61.4478,50.0,2.55817e-15,3.62215e-11,-3.375,0.2
9.0,56.0,5.39645e+09,2271.0,15.0,3.0,62.1128,50.0,2.55817e-15,3.62215e-11,-1.375,0.2
9.0,58.0,5.40019e+09,2271.0,15.0,3.0,62.7769,50.0,2.55817e-15,3.62215e-11,0.625,0.2
9.0,60.0,5.40393e+09,2271.0,15.0,3.0,63.44,50.0,2.55817e-15,3.62215e-11,2.625,0.2
9.0,62.0,5.40767e+09,2271.0,15.0,3.0,64.1023,50.0,2.55817e-15,3.62215e-11,4.625,0.2
9.0,64.0,5.41142e+09,2271.0,15.0,3.0,64.7636,50.0,2.55817e-15,3.62215e-11,6.625,0.2
10.0,0.0,5.41929e+09,2770.0,13.0,3.0,59.8705,50.0,2.50179e-15,0.0,-8.125,-0.2
10.0,2.0,5.42303e+09,2671.0,13.0,3.0,57.767,50.0,2.50179e-15,3.60795e-11,-6.125,-0.2
10.0,4.0,5.42677e+09,2671.0,13.0,3.0,58.4246,50.0,2.50179e-15,3.60795e-11,-4.125,-0.2
10.0,6.0,5.43051e+09,2671.0,13.0,3.0,59.0813,50.0,2.50179e-15,3.60795e-11,-2.125,-0.2
10.0,8.0,5.43425e+09,2671.0,13.0,3.0,59.737,50.0,2.50179e-15,3.60795e-11,-0.125,-0.2
10.0,10.0,5.43799e+09,2671.0,13.0,3.0,60.3919,50.0,2.50179e-15,3.60795e-11,1.875,-0.2
10.0,12.0,5.44173e+09,2671.0,13.0,3.0,61.0459,50.0,2.50179e-15,3.60795e-11,3.875,-0.2
10.0,14.0,5.44548e+09,2671.0,13.0,3.0,61.6989,50.0,2.50179e-15,3.60795e-11,5.875,-0.2
10.0,16.0,5.44922e+09,2671.0,13.0,3.0,62.3511,50.0,2.50179e-15,3.60795e-11,7.875,-0.2
10.0,18.0,5454810000.0,2671.0,13.0,3.0,63.3243,50.0,2.50179e-15,3.60795e-11,-6.625,-0.2
10.0,20.0,5.45855e+09,2671.0,13.0,3.0,63.9743,50.0,2.50179e-15,3.60795e-11,-4.625,-0.2
10.0,22.0,5.46229e+09,2671.0,13.0,3.0,64.6233,50.0,2.50179e-15,3.60795e-11,-2.625,-0.2
10.0,24.0,5.46603e+09,2671.0,13.0,3.0,65.2715,50.0,2.50179e-15,3.60795e-11,-0.625,-0.2
10.0,26.0,5.46978e+09,2671.0,13.0,3.0,65.9188,50.0,2.50179e-15,3.60795e-11,1.375,-0.2
10.0,28.0,5.47352e+09,2671.0,13.0,3.0,66.5652,50.0,2.50179e-15,3.60795e-11,3.375,-0.2
10.0,30.0,5.47726e+09,2671.0,13.0,3.0,67.2107,50.0,2.50179e-15,3.60795e-11,5.375,-0.2
10.0,32.0,5481000000.0,2671.0,13.0,3.0,67.8553,50.0,2.50179e-15,3.60795e-11,7.375,-0.2
10.0,34.0,5.52087e+09,2271.0,13.0,3.0,3.02295,50.0,2.42193e-15,3.58758e-11,-6.875,0.2
10.0,36.0,5.52461e+09,2271.0,13.0,3.0,3.65744,50.0,2.42193e-15,3.58758e-11,-4.875,0.2
10.0,38.0,5.52835e+09,2271.0,13.0,3.0,4.29107,50.0,2.42193e-15,3.58758e-11,-2.875,0.2
10.0,40.0,5532095000.0,2271.0,13.0,3.0,4.92384,50.0,2.42193e-15,3.58758e-11,-0.875,0.2
10.0,42.0,5.53584e+09,2271.0,13.0,3.0,5.55576,50.0,2.42193e-15,3.58758e-11,1.125,0.2
10.0,44.0,5.53958e+09,2271.0,13.0,3.0,6.18682,50.0,2.42193e-15,3.58758e-11,3.125,0.2
10.0,46.0,5.54332e+09,2271.0,13.0,3.0,6.81703,50.0,2.42193e-15,3.58758e-11,5.125,0.2
10.0,48.0,5.54706e+09,2271.0,13.0,3.0,7.44639,50.0,2.42193e-15,3.58758e-11,7.125,0.2
10.0,50.0,5.55265e+09,2271.0,13.0,3.0,8.3856,50.0,2.42193e-15,3.58758e-11,-7.375,0.2
10.0,52.0,5.55639e+09,2271.0,13.0,3.0,9.01285,50.0,2.42193e-15,3.58758e-11,-5.375,0.2
10.0,54.0,5.56014e+09,2271.0,13.0,3.0,9.63925,50.0,2.42193e-15,3.58758e-11,-3.375,0.2
10.0,56.0,5.56388e+09,2271.0,13.0,3.0,10.2648,50.0,2.42193e-15,3.58758e-11,-1.375,0.2
10.0,58.0,5.56762e+09,2271.0,13.0,3.0,10.8895,50.0,2.42193e-15,3.58758e-11,0.625,0.2
10.0,60.0,5.57136e+09,2271.0,13.0,3.0,11.5134,50.0,2.42193e-15,3.58758e-11,2.625,0.2
10.0,62.0,5.5751e+09,2271.0,13.0,3.0,12.1365,50.0,2.42193e-15,3.58758e-11,4.625,0.2
10.0,64.0,5.57884e+09,2271.0,13.0,3.0,12.7587,50.0,2.42193e-15,3.58758e-11,6.625,0.2
11.0,0.0,5.58471e+09,2770.0,11.0,3.0,7.60098,50.0,2.37125e-15,0.0,-8.125,-0.2
11.0,2.0,5.58846e+09,2671.0,11.0,3.0,5.32064,50.0,2.37125e-15,3.5745e-11,-6.125,-0.2
11.0,4.0,5.5922e+09,2671.0,11.0,3.0,5.93988,50.0,2.37125e-15,3.5745e-11,-4.125,-0.2
11.0,6.0,5.59594e+09,2671.0,11.0,3.0,6.55829,50.0,2.37125e-15,3.5745e-11,-2.125,-0.2
11.0,8.0,5.59968e+09,2671.0,11.0,3.0,7.17588,50.0,2.37125e-15,3.5745e-11,-0.125,-0.2
11.0,10.0,5.60342e+09,2671.0,11.0,3.0,7.79264,50.0,2.37125e-15,3.5745e-11,1.875,-0.2
11.0,12.0,5.60716e+09,2671.0,11.0,3.0,8.40857,50.0,2.37125e-15,3.5745e-11,3.875,-0.2
11.0,14.0,5.6109e+09,2671.0,11.0,3.0,9.02369,50.0,2.37125e-15,3.5745e-11,5.875,-0.2
11.0,16.0,5.61465e+09,2671.0,11.0,3.0,9.63798,50.0,2.37125e-15,3.5745e-11,7.875,-0.2
11.0,18.0,5.62024e+09,2671.0,11.0,3.0,10.5547,50.0,2.37125e-15,3.5745e-11,-6.625,-0.2
11.0,20.0,5.62398e+09,2671.0,11.0,3.0,11.167,50.0,2.37125e-15,3.5745e-11,-4.625,-0.2
11.0,22.0,5.62772e+09,2671.0,11.0,3.0,11.7784,50.0,2.37125e-15,3.5745e-11,-2.625,-0.2
11.0,24.0,5.63146e+09,2671.0,11.0,3.0,12.3891,50.0,2.37125e-15,3.5745e-11,-0.625,-0.2
11.0,26.0,5.6352e+09,2671.0,11.0,3.0,12.9989,50.0,2.37125e-15,3.5745e-11,1.375,-0.2
11.0,28.0,5.63895e+09,2671.0,11.0,3.0,13.6079,50.0,2.37125e-15,3.5745e-11,3.375,-0.2
11.0,30.0,5.64269e+09,2671.0,11.0,3.0,14.2161,50.0,2.37125e-15,3.5745e-11,5.375,-0.2
11.0,32.0,5.64643e+09,2671.0,11.0,3.0,14.8235,50.0,2.37125e-15,3.5745e-11,7.375,-0.2
11.0,34.0,5.6543e+09,2271.0,13.0,3.0,24.9178,50.0,2.32058e-15,3.5613e-11,-6.875,0.2
11.0,36.0,5.65804e+09,2271.0,13.0,3.0,25.5227,50.0,2.32058e-15,3.5613e-11,-4.875,0.2
11.0,38.0,5.66178e+09,2271.0,13.0,3.0,26.1268,50.0,2.32058e-15,3.5613e-11,-2.875,0.2
11.0,40.0,5.66552e+09,2271.0,13.0,3.0,26.7301,50.0,2.32058e-15,3.5613e-11,-0.875,0.2
11.0,42.0,5.66927e+09,2271.0,13.0,3.0,27.3326,50.0,2.32058e-15,3.5613e-11,1.125,0.2
11.0,44.0,5.67301e+09,2271.0,13.0,3.0,27.9343,50.0,2.32058e-15,3.5613e-11,3.125,0.2
11.0,46.0,5.67675e+09,2271.0,13.0,3.0,28.5352,50.0,2.32058e-15,3.5613e-11,5.125,0.2
11.0,48.0,5.68049e+09,2271.0,13.0,3.0,29.1354,50.0,2.32058e-15,3.5613e-11,7.125,0.2
11.0,50.0,5.68608e+09,2271.0,13.0,3.0,30.031,50.0,2.32058e-15,3.5613e-11,-7.375,0.2
11.0,52.0,5.68982e+09,2271.0,13.0,3.0,30.6292,50.0,2.32058e-15,3.5613e-11,-5.375,0.2
11.0,54.0,5693565000.0,2271.0,13.0,3.0,31.2265,50.0,2.32058e-15,3.5613e-11,-3.375,0.2
11.0,56.0,5.69731e+09,2271.0,13.0,3.0,31.8231,50.0,2.32058e-15,3.5613e-11,-1.375,0.2
11.0,58.0,5.70105e+09,2271.0,13.0,3.0,32.4189,50.0,2.32058e-15,3.5613e-11,0.625,0.2
11.0,60.0,5.70479e+09,2271.0,13.0,3.0,33.014,50.0,2.32058e-15,3.5613e-11,2.625,0.2
11.0,62.0,5.70853e+09,2271.0,13.0,3.0,33.6082,50.0,2.32058e-15,3.5613e-11,4.625,0.2
11.0,64.0,5.71227e+09,2271.0,13.0,3.0,34.2017,50.0,2.32058e-15,3.5613e-11,6.625,0.2
12.0,0.0,5.71814e+09,2770.0,11.0,3.0,29.1108,50.0,2.27285e-15,0.0,-8.125,-0.2
12.0,2.0,5.72188e+09,2671.0,11.0,3.0,26.6953,50.0,2.27285e-15,3.54875e-11,-6.125,-0.2
12.0,4.0,5.72563e+09,2671.0,11.0,3.0,27.286,50.0,2.27285e-15,3.54875e-11,-4.125,-0.2
12.0,6.0,5.72937e+09,2671.0,11.0,3.0,27.876,50.0,2.27285e-15,3.54875e-11,-2.125,-0.2
12.0,8.0,5.73311e+09,2671.0,11.0,3.0,28.4651,50.0,2.27285e-15,3.54875e-11,-0.125,-0.2
12.0,10.0,5736850000.0,2671.0,11.0,3.0,29.0535,50.0,2.27285e-15,3.54875e-11,1.875,-0.2
12.0,12.0,5.74059e+09,2671.0,11.0,3.0,29.6412,50.0,2.27285e-15,3.54875e-11,3.875,-0.2
12.0,14.0,5.74433e+09,2671.0,11.0,3.0,30.228,50.0,2.27285e-15,3.54875e-11,5.875,-0.2
12.0,16.0,5.74807e+09,2671.0,11.0,3.0,30.8141,50.0,2.27285e-15,3.54875e-11,7.875,-0.2
12.0,18.0,5.75367e+09,2671.0,11.0,3.0,31.6888,50.0,2.27285e-15,3.54875e-11,-6.625,-0.2
12.0,20.0,5.75741e+09,2671.0,11.0,3.0,32.273,50.0,2.27285e-15,3.54875e-11,-4.625,-0.2
12.0,22.0,5761150000.0,2671.0,11.0,3.0,32.8565,50.0,2.27285e-15,3.54875e-11,-2.625,-0.2
12.0,24.0,5.76489e+09,2671.0,11.0,3.0,33.4391,50.0,2.27285e-15,3.54875e-11,-0.625,-0.2
12.0,26.0,5.76863e+09,2671.0,11.0,3.0,34.0211,50.0,2.27285e-15,3.54875e-11,1.375,-0.2
12.0,28.0,5.77237e+09,2671.0,11.0,3.0,34.6022,50.0,2.27285e-15,3.54875e-11,3.375,-0.2
12.0,30.0,5.77612e+09,2671.0,11.0,3.0,35.1827,50.0,2.27285e-15,3.54875e-11,5.375,-0.2
12.0,32.0,5.77986e+09,2671.0,11.0,3.0,35.7623,50.0,2.27285e-15,3.54875e-11,7.375,-0.2
12.0,34.0,5.78773e+09,2271.0,13.0,3.0,45.8036,50.0,2.22509e-15,3.53608e-11,-6.875,0.2
12.0,36.0,5.79147e+09,2271.0,13.0,3.0,46.381,50.0,2.22509e-15,3.53608e-11,-4.875,0.2
12.0,38.0,5.79521e+09,2271.0,13.0,3.0,46.9576,50.0,2.22509e-15,3.53608e-11,-2.875,0.2
12.0,40.0,5.79895e+09,2271.0,13.0,3.0,47.5334,50.0,2.22509e-15,3.53608e-11,-0.875,0.2
12.0,42.0,5.80269e+09,2271.0,13.0,3.0,48.1086,50.0,2.22509e-15,3.53608e-11,1.125,0.2
12.0,44.0,5806435000.0,2271.0,13.0,3.0,48.6829,50.0,2.22509e-15,3.53608e-11,3.125,0.2
12.0,46.0,5.81018e+09,2271.0,13.0,3.0,49.2566,50.0,2.22509e-15,3.53608e-11,5.125,0.2
12.0,48.0,5.81392e+09,2271.0,13.0,3.0,49.8294,50.0,2.22509e-15,3.53608e-11,7.125,0.2
12.0,50.0,5.81951e+09,2271.0,13.0,3.0,50.6845,50.0,2.22509e-15,3.53608e-11,-7.375,0.2
12.0,52.0,5.82325e+09,2271.0,13.0,3.0,51.2555,50.0,2.22509e-15,3.53608e-11,-5.375,0.2
12.0,54.0,5.82699e+09,2271.0,13.0,3.0,51.8258,50.0,2.22509e-15,3.53608e-11,-3.375,0.2
12.0,56.0,5.83073e+09,2271.0,13.0,3.0,52.3954,50.0,2.22509e-15,3.53608e-11,-1.375,0.2
12.0,58.0,5.83448e+09,2271.0,13.0,3.0,52.9643,50.0,2.22509e-15,3.53608e-11,0.625,0.2
12.0,60.0,5.83822e+09,2271.0,13.0,3.0,53.5324,50.0,2.22509e-15,3.53608e-11,2.625,0.2
12.0,62.0,5.84196e+09,2271.0,13.0,3.0,54.0998,50.0,2.22509e-15,3.53608e-11,4.625,0.2
12.0,64.0,5.8457e+09,2271.0,13.0,3.0,54.6665,50.0,2.22509e-15,3.53608e-11,6.625,0.2
13.0,0.0,5.85157e+09,2770.0,11.0,3.0,49.6409,50.0,2.18006e-15,0.0,-8.125,-0.2
13.0,2.0,5.85531e+09,2671.0,11.0,3.0,47.0964,50.0,2.18006e-15,3.52403e-11,-6.125,-0.2
13.0,4.0,5.85905e+09,2671.0,11.0,3.0,47.6605,50.0,2.18006e-15,3.52403e-11,-4.125,-0.2
13.0,6.0,5.8628e+09,2671.0,11.0,3.0,48.2239,50.0,2.18006e-15,3.52403e-11,-2.125,-0.2
13.0,8.0,5.86654e+09,2671.0,11.0,3.0,48.7866,50.0,2.18006e-15,3.52403e-11,-0.125,-0.2
13.0,10.0,5.87028e+09,2671.0,11.0,3.0,49.3485,50.0,2.18006e-15,3.52403e-11,1.875,-0.2
13.0,12.0,5.87402e+09,2671.0,11.0,3.0,49.9097,50.0,2.18006e-15,3.52403e-11,3.875,-0.2
13.0,14.0,5.87776e+09,2671.0,11.0,3.0,50.4703,50.0,2.18006e-15,3.52403e-11,5.875,-0.2
13.0,16.0,5.8815e+09,2671.0,11.0,3.0,51.0301,50.0,2.18006e-15,3.52403e-11,7.875,-0.2
13.0,18.0,5.8871e+09,2671.0,11.0,3.0,51.8655,50.0,2.18006e-15,3.52403e-11,-6.625,-0.2
13.0,20.0,5.89084e+09,2671.0,11.0,3.0,52.4236,50.0,2.18006e-15,3.52403e-11,-4.625,-0.2
13.0,22.0,5.89458e+09,2671.0,11.0,3.0,52.9809,50.0,2.18006e-15,3.52403e-11,-2.625,-0.2
13.0,24.0,5.89832e+09,2671.0,11.0,3.0,53.5375,50.0,2.18006e-15,3.52403e-11,-0.625,-0.2
13.0,26.0,5.90206e+09,2671.0,11.0,3.0,54.0934,50.0,2.18006e-15,3.52403e-11,1.375,-0.2
13.0,28.0,5.9058e+09,2671.0,11.0,3.0,54.6486,50.0,2.18006e-15,3.52403e-11,3.375,-0.2
13.0,30.0,5.90954e+09,2671.0,11.0,3.0,55.2031,50.0,2.18006e-15,3.52403e-11,5.375,-0.2
13.0,32.0,5.91329e+09,2671.0,11.0,3.0,55.7569,50.0,2.18006e-15,3.52403e-11,7.375,-0.2
13.0,34.0,5.92116e+09,2271.0,13.0,3.0,65.7488,50.0,2.13498e-15,3.51185e-11,-6.875,0.2
13.0,36.0,5.9249e+09,2271.0,13.0,3.0,66.3004,50.0,2.13498e-15,3.51185e-11,-4.875,0.2
13.0,38.0,5.92864e+09,2271.0,13.0,3.0,66.8513,50.0,2.13498e-15,3.51185e-11,-2.875,0.2
13.0,40.0,5.93238e+09,2271.0,13.0,3.0,67.4016,50.0,2.13498e-15,3.51185e-11,-0.875,0.2
13.0,42.0,5.93612e+09,2271.0,13.0,3.0,67.9511,50.0,2.13498e-15,3.51185e-11,1.125,0.2
13.0,44.0,5.93986e+09,2271.0,13.0,3.0,68.5,50.0,2.13498e-15,3.51185e-11,3.125,0.2
13.0,46.0,5.94361e+09,2271.0,13.0,3.0,69.0481,50.0,2.13498e-15,3.51185e-11,5.125,0.2
13.0,48.0,5.94735e+09,2271.0,13.0,3.0,69.5956,50.0,2.13498e-15,3.51185e-11,7.125,0.2
13.0,50.0,5.95294e+09,2271.0,13.0,3.0,70.4127,50.0,2.13498e-15,3.51185e-11,-7.375,0.2
13.0,52.0,5.95668e+09,2271.0,13.0,3.0,70.9584,50.0,2.13498e-15,3.51185e-11,-5.375,0.2
13.0,54.0,5.96042e+09,2271.0,13.0,3.0,71.5035,50.0,2.13498e-15,3.51185e-11,-3.375,0.2
13.0,56.0,5.96416e+09,2271.0,13.0,3.0,72.0479,50.0,2.13498e-15,3.51185e-11,-1.375,0.2
13.0,58.0,5967905000.0,2271.0,13.0,3.0,72.5916,50.0,2.13498e-15,3.51185e-11,0.625,0.2
13.0,60.0,5.97165e+09,2271.0,13.0,3.0,73.1346,50.0,2.13498e-15,3.51185e-11,2.625,0.2
13.0,62.0,5.97539e+09,2271.0,13.0,3.0,73.6769,50.0,2.13498e-15,3.51185e-11,4.625,0.2
13.0,64.0,5.97913e+09,2271.0,13.0,3.0,74.2186,50.0,2.13498e-15,3.51185e-11,6.625,0.2
13.0,65.0,5981000000.0,2271.0,13.0,3.0,74.4892,50.0,2.13498e-15,3.51185e-11,7.625,0.2